<?xml version="1.0" encoding="UTF-8"?>
<Bundle xmlns="http://hl7.org/fhir">
    <meta> 
        <lastUpdated value="2020-05-14T11:43:30Z"/> 
    </meta> 
    <identifier>
        <use value="official"/>
        <system value="https://cap.org"/>
        <value value="8901"/>
    </identifier>
    <type value="transaction"></type>
    <entry>
        <fullUrl value="urn:uuid:13097849f20938r0ufjf993242"/>
        <resource>
            <DocumentReference xmlns="http://hl7.org/fhir">
                <meta>
                    <profile value="http://ihe.net/fhir/StructureDefinition/IHE_MHD_Provide_Minimal_DocumentReference"/>
                </meta>
                <text> 
                    <status value="generated"/> 
                    <div xmlns="http://www.w3.org/1999/xhtml">Low Dose CT for Cancer Screening</div> 
                </text>
                <masterIdentifier>
                    <system value="https://ontariohealth.ca/cco/sdc"/>
                    <value value="LDCT_Lung1.13097849f20938r0ufjf993242.ver2"/>
                </masterIdentifier>
                <!-- ID for this resource appended FormID.FormInstanceVersionURI -->
                <identifier>
                    <system value="https://ontariohealth.ca/cco/sdc"/>
                    <value value="LDCT_Lung"/>
                </identifier>
                <!-- Matches SDC Lineage -->
                <identifier>
                    <system value="https://ontariohealth.ca/cco/sdc"/>
                    <value value="1.0.0"/>
                </identifier>
                <!-- Matches SDC Version -->
                <identifier>
                    <system value="https://ontariohealth.ca/cco/sdc"/>
                    <value value="LDCT_Lung1"/>
                </identifier>
                <!-- Matches SDC FormID; should be unique to this Form -->
                <identifier>
                    <system value="https://ontariohealth.ca/cco/sdc"/>
                    <value value="13097849f20938r0ufjf993242"/>
                </identifier>
                <!-- Matches SDC FormInstanceURI -->
                <status value="current"/>
                <docStatus value="final"/>
                <type>
                    <coding>
                        <system value="http://loinc.org"/>
                        <code value="60568-3"/>
                        <display value="Synoptic Report"/>
                    </coding>
                </type>
                <category>
                    <coding>
                        <system value="urn:oid:1.3.6.1.4.1.19376.1.2.6.1"/>
                        <code value="REPORTS"/>
                        <display value="REPORTS"/>
                    </coding>
                </category>
                <!-- Must us FHIR statuses for docStatus -->
                <subject>
                    <reference value="Patient/f201"/>
                    <display value="Roel"/>
                </subject>
                <date value="2019-10-24T09:43:41+11:00"/>
                <author>
                    <reference value="Practitioner/f202"/>
                    <display value="Luigi Maas"/>
                </author>
                <securityLabel>
                    <coding>
                        <system value="http://terminology.hl7.org/CodeSystem/v3-Confidentiality"/> 
                        <code value="N"/> 
                        <display value="normal"/> 
                    </coding>
                </securityLabel>
                <content>
                    <attachment>
                        <contentType value="application/xml"/>
                        <language value="en-CA"/>
                        <data value=""/>
                    </attachment>
                    <format>
                        <system value="http://ihe.net/fhir/ValueSet/IHE.FormatCode.codsystem"/> 
                        <code value="urn:ihe:pcc:crc:2008"/> 
                        <display value="Cancer Registry Content (CRC)"/> 
                    </format>
                </content>
            </DocumentReference>
        </resource>
        <request> 
            <method value="POST"/> 
            <url value="DocumentReference"/>
            <ifNoneExist value="identifier=LDCT_Lung1.13097849f20938r0ufjf993242.ver1"/>
        </request> 
    </entry>
    <entry>
        <fullUrl value="urn:uuid:f96d3fea-62b3-47e9-8443-f199c2f946j9"/>
        <resource>
            <DocumentReference xmlns="http://hl7.org/fhir">
                <meta>
                    <profile value="http://ihe.net/fhir/StructureDefinition/IHE_MHD_Provide_Minimal_DocumentReference"/>
                </meta>
                <text> 
                    <status value="generated"/> 
                    <div xmlns="http://www.w3.org/1999/xhtml">Breast Biomarker report</div> 
                </text>
                <masterIdentifier>
                    <system value="https://cap.org"/>
                    <value value="Breast.Bmk.169_1.003.001.CTP3_sdcFDF.f96d3fea-62b3-47e9-8443-f199c2f946j9.ver2"/>
                </masterIdentifier>
                <!-- ID for this resource appended FormID.FormInstanceVersionURI -->
                <identifier>
                    <system value="https://cap.org"/>
                    <value value="Breast.Bmk.169"/>
                </identifier>
                <!-- Matches SDC Lineage -->
                <identifier>
                    <system value="https://cap.org"/>
                    <value value="1.003.001.CTP"/>
                </identifier>
                <!-- Matches SDC form Version -->
                <identifier>
                    <system value="https://cap.org"/>
                    <value value="Breast.Bmk.169_1.003.001.CTP3_sdcFDF"/>
                </identifier>
                <!-- Matches SDC FormID; should be unique to this Form -->
                <identifier>
                    <system value="https://cap.org"/>
                    <value value="f96d3fea-62b3-47e9-8443-f199c2f946j9"/>
                </identifier>
                <!-- Matches SDC FormInstanceURI -->
                <status value="current"/>
                <docStatus value="final"/>
                <!-- Must us FHIR statuses for docStatus -->
                <type>
                    <coding>
                        <system value="http://loinc.org"/>
                        <code value="60568-3"/>
                        <display value="Synoptic Report"/>
                    </coding>
                </type>
                <category>
                    <coding>
                        <system value="urn:oid:1.3.6.1.4.1.19376.1.2.6.1"/>
                        <code value="REPORTS"/>
                        <display value="REPORTS"/>
                    </coding>
                </category>
                <subject>
                    <reference value="Patient/q201"/>
                    <display value="Bibata Amidou"/>
                </subject>
                <date value="2018-12-24T09:43:41+11:00"/>
                <author>
                    <reference value="Practitioner/f202"/>
                    <display value="Luigi Maas"/>
                </author>
                <securityLabel>
                    <coding>
                        <system value="http://terminology.hl7.org/CodeSystem/v3-Confidentiality"/> 
                        <code value="N"/> 
                        <display value="normal"/> 
                    </coding>
                </securityLabel>
                <content>
                    <attachment>
                        <contentType value="application/xml"/>
                        <language value="en-US"/>
                        <!-- likely en-US or en-CA --> 
                        <data value=""/>
                    </attachment>
                    <format>
                        <system value="http://ihe.net/fhir/ValueSet/IHE.FormatCode.codsystem"/> 
                        <code value="urn:ihe:pcc:crc:2008"/> 
                        <display value="Cancer Registry Content (CRC)"/> 
                    </format>
                </content>
            </DocumentReference>
        </resource>
        <request> 
            <method value="POST"/> 
            <url value="DocumentReference"/>
            <ifNoneExist value="identifier=Breast.Bmk.169_1.003.001.CTP3_sdcFDF.f96d3fea-62b3-47e9-8443-f199c2f946j9.ver1"/>
        </request>
    </entry>
    <entry>
        <fullUrl value="urn:uuid:1223456"/>
        <resource> 
            <DocumentReference xmlns="http://hl7.org/fhir">
                <masterIdentifier>
                    <system value="https://cap.org"></system>
                    <value value="COVID-19.394_1.000.000.CTP1_sdcFDF.1223456"></value>
                </masterIdentifier>
                <identifier>
                    <system value="https://cap.org"></system>
                    <value value="COVID-19.394"></value>
                </identifier>
                <identifier>
                    <system value="https://cap.org"></system>
                    <value value="1.000.000"></value>
                </identifier>
                <identifier>
                    <system value="https://cap.org"></system>
                    <value value="COVID-19.394_1.000.000.CTP1_sdcFDF"></value>
                </identifier>
                <identifier>
                    <system value="https://cap.org"></system>
                    <value value="1223456"></value>
                </identifier>
                <status value="current"></status>
                <docStatus value="final"></docStatus>
                <type>
                    <coding>
                        <system value="http://loinc.org"></system>
                        <code value="60568-3"></code>
                        <display value="Synoptic Report"></display>
                    </coding>
                </type>
                <category>
                    <coding>
                        <system value="urn:oid:1.3.6.1.4.1.19376.1.2.6.1"></system>
                        <code value="REPORTS"></code>
                        <display value="REPORTS"></display>
                    </coding>
                </category>
                <subject>
                    <reference value="Patient/12345"></reference>
                    <display value="Peter James Chalmers"></display>
                </subject>
                <date value="2020-01-01"></date>
                <author>
                    <reference value="Practitioner/12345678902"></reference>
                    <display value="Luigi Maas"></display>
                </author>
                <securityLabel>
                    <coding>
                        <system value="http://terminology.hl7.org/CodeSystem/v3-Confidentiality"></system>
                        <code value="normal"></code>
                        <display value="N"></display>
                    </coding>
                </securityLabel>
                <content>
                    <attachment>
                        <contentType value="application/xml"></contentType>
                        <language value="en-US"></language>
                        <data value=""></data>
                    </attachment>
                </content>
            </DocumentReference>
        </resource>
        <request> 
            <method value="POST"/> 
            <url value="DocumentReference"/>
            <ifNoneExist value="identifier=COVID-19.394_1.000.000.CTP1_sdcFDF.1223456"/>
        </request>      
    </entry>
    <entry>
        <fullUrl value="urn:uuid:f96d3fea-62b3-47e9-8443-f199c2f946f0"/>
        <resource> 
            <DocumentReference xmlns="http://hl7.org/fhir">
                <meta>
                    <profile value="http://ihe.net/fhir/StructureDefinition/IHE_MHD_Provide_Minimal_DocumentReference"/>
                </meta>
                <text> 
                    <status value="generated"/> 
                    <div xmlns="http://www.w3.org/1999/xhtml">Adrenal Pathology form</div> 
                </text>
                <masterIdentifier>
                    <system value="https://cap.org"/>
                    <value value="Adrenal.Bx.Res.129_3.002.011.RC1_sdcFDF1.f96d3fea-62b3-47e9-8443-f199c2f946f0.ver2"/>
                </masterIdentifier>
                <!-- ID for this resource appended FormID.FormInstanceVersionURI -->
                <identifier>
                    <system value="https://cap.org"/>
                    <value value="Adrenal.Bx.Res.129"/>
                </identifier>
                <!-- Matches SDC Lineage -->
                <identifier>
                    <system value="https://cap.org"/>
                    <value value="3.002.011.RC1"/>
                </identifier>
                <!-- Matches SDC form Version -->
                <identifier>
                    <system value="https://cap.org"/>
                    <value value="Adrenal.Bx.Res.129_3.002.011.RC1_sdcFDF1"/>
                </identifier>
                <!-- Matches SDC FormID; should be unique to this Form -->
                <identifier>
                    <system value="https://cap.org"/>
                    <value value="f96d3fea-62b3-47e9-8443-f199c2f946f0"/>
                </identifier>
                <!-- Matches SDC FormInstanceURI -->
                <status value="current"/>
                <docStatus value="final"/>
                <!-- Must us FHIR statuses for docStatus -->
                <type>
                    <coding>
                        <system value="http://loinc.org"/>
                        <code value="60568-3"/>
                        <display value="Synoptic Report"/>
                    </coding>
                </type>
                <category>
                    <coding>
                        <system value="urn:oid:1.3.6.1.4.1.19376.1.2.6.1"/>
                        <code value="REPORTS"/>
                        <display value="REPORTS"/>
                    </coding>
                </category>
                <subject>
                    <reference value="Patient/m123"/>
                    <display value="John B. Anyperson"/>
                </subject>
                <date value="2018-12-24T09:43:41+11:00"/>
                <author>
                    <reference value="Practitioner/f202"/>
                    <display value="Luigi Maas"/>
                </author>
                <securityLabel>
                    <coding>
                        <system value="http://terminology.hl7.org/CodeSystem/v3-Confidentiality"/> 
                        <code value="N"/> 
                        <display value="normal"/> 
                    </coding>
                </securityLabel>
                <content>
                    <attachment>
                        <contentType value="application/xml"/>
                        <language value="en-US"/>
                        <!-- likely en-US or en-CA --> 
                        <data value=""/>
                    </attachment>
                    <format>
                        <system value="http://ihe.net/fhir/ValueSet/IHE.FormatCode.codsystem"/> 
                        <code value="urn:ihe:pcc:crc:2008"/> 
                        <display value="Cancer Registry Content (CRC)"/> 
                    </format>
                </content>
            </DocumentReference>            
        </resource>
        <request> 
            <method value="POST"/> 
            <url value="DocumentReference"/>
            <ifNoneExist value="identifier=Adrenal.Bx.Res.129_3.002.011.RC1_sdcFDF1.f96d3fea-62b3-47e9-8443-f199c2f946f0.ver1"/>
        </request>
    </entry>
    <entry>
        <fullUrl value="urn:uuid:13097849f20938r33fjf993242"/>
        <resource> 
            <Organization xmlns="http://hl7.org/fhir">
                <text> 
                    <status value="generated"/> 
                    <div xmlns="http://www.w3.org/1999/xhtml">
                        
                        <p> Good Health Clinic</p> 
                        
                    </div> 
                </text> 
                <identifier> 
                    <system value="urn:ietf:rfc:3986"/> 
                    <value value="2.16.840.1.113883.19.5"/> 
                </identifier> 
                <name value="Good Health Clinic"/> 
            </Organization> 
        </resource>
        <request> 
            <method value="POST"/> 
            <url value="Organization"/> 
        </request>
    </entry>
    <entry>
        <fullUrl value="urn:uuid:1301149f20938r33fjf993242"/>
        <resource> 
            <Location> 
                <text> 
                    <status value="generated"/> 
                    <div xmlns="http://www.w3.org/1999/xhtml">Good Health Clinic</div> 
                </text> 
                <status value="active"/> 
                <name value="Good Health Clinic"/> 
                <managingOrganization> 
                    <reference value="Organization/13097849f20938r33fjf993242"/> 
                    <display value="Good Health Clinice"/> 
                </managingOrganization> 
            </Location> 
        </resource>
        <request> 
            <method value="POST"/> 
            <url value="Location"/> 
        </request>
    </entry>
    <entry>
        <fullUrl value="urn:uuid:13097849f20938r0ufjf993242"/>
        <resource> 
            <Provenance xmlns="http://hl7.org/fhir">
                <target>
                    <reference value="Bundle/8901"></reference>
                    <display value="Bunch of SDC forms from Alex via Postman0"></display>
                </target>
                <recorded value="2020-05-14T16:14:25.033-04:00"></recorded>
                <location>
                    <reference value="Location/1301149f20938r33fjf993242"/>
                </location>
                <reason>
                    <coding>
                        <system value="http://terminology.hl7.org/ValueSet/v3-PurposeOfUse"></system>
                        <code value="TREAT"></code>
                        <display value="treatment"></display>
                    </coding>
                </reason>
                <activity>
                    <coding>
                        <system value="http://terminology.hl7.org/CodeSystem/v3-DataOperation"></system>
                        <code value="CREATE"></code>
                        <display value="create"></display>
                    </coding>
                </activity>
                <agent> 
                    <type> 
                        <coding> 
                            <system value="http://terminology.hl7.org/CodeSystem/v3-ParticipationType"/> 
                            <code value="author"/> 
                        </coding> 
                    </type> 
                    <who> 
                        <reference value="Practitioner/f202"/> 
                    </who> 
                    
                    <onBehalfOf>
                        <reference value="Patient/f201"/>
                    </onBehalfOf>
                </agent> 
            </Provenance>           
        </resource>
        <request> 
            <method value="POST"/> 
            <url value="Provenance"/> 
        </request>
    </entry>
</Bundle>